Folder: rclass/Exo/tga/Data

Note: README.md
## Description

This is the repository for the ["Reproducible data treatment with R"](http://lmi.cnrs.fr/r/) class.

Interactive exercises can be found in the associated [`tutoR`](https://github.com/colinbousige/tutoR) package.

## Author

[Colin BOUSIGE](mailto:colin.bousige@cnrs.fr) -- CNRS Researcher, [Laboratoire des Multimat√©riaux et Interfaces](http://lmi.cnrs.fr/), Lyon, France

## License

This book and its code samples are licensed to you under [MIT](https://opensource.org/licenses/MIT).

File: TGA.txt
Title                                                           21.09.2015 09:32
________________________________________________________________________________

Title

Curve Name:
  |CJ Top2 avec CNT lav EtOH 25/800˚C 5˚C/min Air-CJ Blanc 25/800˚C 5˚C/min Air, 31.08.2015 14:40:49
  Performed 27.07.2015 21:28:55
Curve Values:
          Index              t           Tset          Tread           Mass
                           [s]           [˚C]           [˚C]           [mg]
              0              0        32.3555             25        34.9786
             96             96        33.0473             25        34.8457
            192            192        33.4138             25        34.7027
            288            288        33.5962             25        34.5567
            384            384        33.6808             25        34.4089
            480            480        33.7266             25        34.2609
            576            576        33.7502             25        34.1137
            672            672        33.7572             25        33.9675
            768            768        33.7416             25        33.8197
            864            864        33.7581             25        33.6728
            960            960        33.7707             25        33.5254
           1056           1056        33.7662             25        33.3786
           1152           1152        33.7712             25        33.2309
           1248           1248        33.7758             25        33.0849
           1344           1344         33.775             25        32.9384
           1440           1440        33.7651             25        32.7926
           1536           1536        33.7617             25         32.647
           1632           1632        33.7701             25        32.5011
           1728           1728        33.7767             25        32.3522
           1824           1824        34.8716             27        32.2056
           1920           1920         41.154             35        32.0217
           2016           2016        47.9668             43        31.7556
           2112           2112        54.9631             51        31.3595
           2208           2208        62.0464             59        30.7695
           2304           2304         69.162             67        29.8728
           2400           2400        76.1835             75        28.4439
           2496           2496        82.8981             83        25.9341
           2592           2592         88.332             91        20.4058
           2688           2688        93.9659             99        12.5003
           2784           2784        102.315            107        8.00357
           2880           2880         110.17            115        4.18073
           2976           2976        121.444            123        3.77221
           3072           3072        130.617            131        3.76384
           3168           3168        138.937            139        3.76259
           3264           3264        146.965            147        3.76159
           3360           3360        154.901            155        3.75914
           3456           3456        162.838            163         3.7545
           3552           3552        170.796            171        3.74427
           3648           3648        178.756            179        3.72506
           3744           3744        186.787            187        3.69398
           3840           3840        194.825            195        3.63864
           3936           3936        202.852            203        3.52728
           4032           4032        210.833            211        3.37765
           4128           4128        218.854            219        3.27745
           4224           4224        226.887            227        3.18947
           4320           4320        234.958            235        3.10659
           4416           4416        243.032            243        3.02181
           4512           4512        251.122            251        2.93991
           4608           4608        259.233            259        2.85814
           4704           4704          267.4            267        2.76489
           4800           4800        275.607            275        2.62985
           4896           4896        284.085            283        2.42687
           4992           4992        292.309            291        2.06224
           5088           5088        300.096            299        1.96392
           5184           5184        308.097            307        1.91645
           5280           5280        316.185            315        1.88643
           5376           5376        324.309            323         1.8636
           5472           5472        332.456            331        1.84475
           5568           5568        340.599            339        1.83224
           5664           5664        348.742            347        1.81972
           5760           5760        356.892            355        1.81096
           5856           5856        365.036            363        1.80268
           5952           5952        373.162            371        1.79633
           6048           6048        381.289            379        1.79179
           6144           6144        389.432            387        1.78577
           6240           6240        397.561            395        1.78018
           6336           6336        405.691            403        1.77466
           6432           6432        413.839            411        1.76749
           6528           6528        421.985            419        1.75726
           6624           6624        430.131            427        1.74372
           6720           6720        438.225            435        1.73469
           6816           6816        446.312            443        1.72901
           6912           6912        454.402            451        1.72512
           7008           7008        462.488            459        1.72519
           7104           7104        470.566            467        1.72501
           7200           7200        478.644            475        1.72097
           7296           7296        486.736            483        1.72661
           7392           7392        494.816            491        1.72452
           7488           7488        502.877            499        1.72936
           7584           7584        510.925            507        1.72064
           7680           7680        518.968            515        1.72027
           7776           7776        527.029            523        1.71903
           7872           7872        535.089            531        1.72101
           7968           7968        543.146            539         1.7229
           8064           8064        551.188            547        1.72237
           8160           8160        559.233            555        1.72299
           8256           8256        567.252            563        1.72436
           8352           8352        575.261            571         1.7225
           8448           8448        583.271            579        1.72532
           8544           8544        591.275            587        1.72379
           8640           8640        599.262            595        1.72979
           8736           8736        607.226            603        1.72096
           8832           8832        615.205            611        1.72209
           8928           8928        623.164            619         1.7231
           9024           9024        631.107            627         1.7317
           9120           9120        639.037            635        1.73083
           9216           9216         646.96            643        1.72598
           9312           9312        654.885            651        1.72121
           9408           9408        662.802            659        1.72001
           9504           9504        670.709            667        1.72062
           9600           9600        678.596            675         1.7206
           9696           9696         686.49            683        1.71994
           9792           9792        694.349            691         1.7197
           9888           9888        702.215            699        1.71936
           9984           9984        710.065            707        1.72002
          10080          10080        717.918            715        1.71955
          10176          10176         725.77            723        1.71991
          10272          10272        733.612            731        1.71908
          10368          10368        741.446            739          1.719
          10464          10464        749.276            747        1.71859
          10560          10560        757.114            755        1.71946
          10656          10656        764.943            763        1.71795
          10752          10752        772.767            771        1.71802
          10848          10848        780.569            779        1.71701
          10944          10944        788.379            787        1.71769
          11040          11040        796.181            795        1.71776
          11136          11136        781.666            776        1.71803
          11232          11232        714.597            712         1.7196
          11328          11328        651.011            648        1.71814
          11424          11424        587.229            584        1.71802
          11520          11520        523.098            520        1.71768
          11616          11616        459.075            456        1.71821
          11712          11712        398.723            392        1.71868
          11808          11808         346.23            328        1.71871
          11904          11904        301.101            264        1.71836
          12000          12000        262.226            200        1.70381
          12096          12096        228.643            136        1.71515
          12192          12192        199.587             72        1.71565
          12261          12261        181.152             26        1.71832

Results:
  Content	23.02 %
  	0.87 mg

  Content	6.44 %
  	0.24 mg

  Content	22.21 %
  	0.84 mg

  Content	1.88 %
  	71.36e-03 mg

  Content	53.58 %
  	2.04 mg

Texts:

  |CJ Top2 avec CNT lav EtOH 25/800˚C 5˚C/min Air-CJ Blanc 25/800˚C 5˚C/min Air
  CJ Top2 avec CNT lav EtOH 25/800˚C 5˚C/min Air, 3.8000 mg

  Sample: CJ Top2 avec CNT lav EtOH 25/800˚C 5˚C/min Air, 3.8000 mg

  perte de masse totale entre 150 et 600˚C

  CJ Top2 avec CNT lav EtOH 25/800˚C 5˚C/min Air, 3.8000 mg New mass

  masse ˚chantillon apr˚s d˚part du solvant : 3.8 mg

Sample:
  CJ Top2 avec CNT lav EtOH 25/800˚C 5˚C/min Air, 3.8000 mg
Sample Remarks:
  avec couvercle; sans saphir; sans charbon
Experiment Comments:
  -
Evaluation:
  CJ Top2 avec CNT lav EtOH 25/800˚C 5˚C/min Air, 3.8000 mg New mass, 31.08.2015 14:40:49
Method:
  Screen 25/800˚C 5˚C/min + iso 25C 30mn Air
Sample Holder:
  Alumina 150ul
  Weight  : 0
  Material: Ceramic

________________________________________________________________________________
Not signed                                                        STARe SW 13.00